Folder: Relazioni_Materiali

Note: README.md
# Relazioni Scienze dei Materiali

Dipartimento di Ingeneria Industriale - Corso di Scienze dei Materiali 

## SEM



## XDR

File: Dati_XRD.csv
2theta,Experimental
30.0009,341.25
30.2801,296.78
30.5593,304.79
30.8384,308.84
31.1176,278.21
31.3968,312.24
31.676,144.06
31.9552,296.57
32.2344,333.32
32.5136,185.65
32.7928,272.46
33.0719,332.05
33.3511,361.78
33.6303,245.39
33.9095,188.74
34.1887,280.23
34.4679,352.46
34.7471,193.99
35.0263,240.19
35.3054,233.77
35.5846,282.61
35.8638,226.29
36.143,326.78
36.4222,180.66
36.7014,255.28
36.9806,242.78
37.2598,243.16
37.5389,247.16
37.8181,208.71
38.0973,162.03
38.3765,196.73
38.6557,299.43
38.9349,225.89
39.2141,322.61
39.4933,201.45
39.7724,252.2
40.0516,316.36
40.3308,231.97
40.61,280.92
40.8892,302.87
41.1684,191.22
41.4476,198.8
41.7268,238.29
42.0059,264.95
42.2851,308.8
42.5643,374.39
42.8435,384.54
43.1227,598.7
43.4019,1476.28
43.6811,7109.21
43.9602,4073.77
44.2394,1445
44.5186,2101.59
44.7978,6365.28
45.077,2870.11
45.3562,752.22
45.6354,457.03
45.9146,480.75
46.1937,255.25
46.4729,346.93
46.7521,286.09
47.0313,314.49
47.3105,380.42
47.5897,316.92
47.8689,233.52
48.1481,300.41
48.4272,319.61
48.7064,376.03
48.9856,334.55
49.2648,399.87
49.544,294.31
49.8232,417.5
50.1024,593.7
50.3816,1004.76
50.6607,1770.51
50.9399,2820.92
51.2191,1130.74
51.4983,530.3
51.7775,330.08
52.0567,344.2
52.3359,267.73
52.6151,233.3
52.8942,328.03
53.1734,410.7
53.4526,321.46
53.7318,190.81
54.011,321.29
54.2902,233.1
54.5694,207.34
54.8486,268.3
55.1277,329.11
55.4069,252.27
55.6861,326.83
55.9653,329.53
56.2445,250.29
56.5237,245.51
56.8029,220.71
57.082,426.43
57.3612,379.34
57.6404,426.86
57.9196,249.24
58.1988,377.53
58.478,244.51
58.7572,273.67
59.0364,285.83
59.3155,323.56
59.5947,177.77
59.8739,314.53
60.1531,333.85
60.4323,299.46
60.7115,418.56
60.9907,274.43
61.2699,186.42
61.549,279.25
61.8282,111.01
62.1074,250.79
62.3866,319.84
62.6658,319.99
62.945,242.26
63.2242,397.96
63.5034,249.32
63.7825,341.4
64.0617,333.1
64.3409,492.74
64.6201,624.26
64.8993,991.44
65.1785,1318.95
65.4577,861.43
65.7369,456.09
66.016,354.71
66.2952,410
66.5744,335.38
66.8536,246.51
67.1328,304.65
67.412,346.38
67.6912,282.61
67.9704,192.31
68.2495,296.18
68.5287,300.42
68.8079,348.55
69.0871,304.29
69.3663,345.12
69.6455,276.51
69.9247,234.11
70.2039,264.41
70.483,252.39
70.7622,375.59
71.0414,296.51
71.3206,336.4
71.5998,302.93
71.879,328.56
72.1582,263.76
72.4373,247.63
72.7165,259.77
72.9957,265.91
73.2749,481.33
73.5541,299.82
73.8333,383.49
74.1125,466.66
74.3917,601.92
74.6708,1053.78
74.95,1228.1
75.2292,936.53
75.5084,483.58
75.7876,535.56
76.0668,397.16
76.346,397.29
76.6252,270.65
76.9043,279.05
77.1835,378.11
77.4627,359.85
77.7419,377.11
78.0211,220.29
78.3003,284.6
78.5795,391.76
78.8587,355.7
79.1378,374.32
79.417,300.89
79.6962,350.56
79.9754,333.19
80.2546,289.8
80.5338,382.43
80.813,302.12
81.0922,233.53
81.3713,430.71
81.6505,438.3
81.9297,642.58
82.2089,1096.41
82.4881,1866.21
82.7673,1308.67
83.0465,838.52
83.3257,453.06
83.6048,372.97
83.884,412.36
84.1632,344.14
84.4424,341.75
84.7216,329.2
85.0008,310.86
85.28,445.01
85.5591,308.75
85.8383,309.78
86.1175,296.14
86.3967,206.85
86.6759,215.11
86.9551,330.6
87.2343,268.81
87.5135,230.7
87.7926,352.54
88.0718,267.82
88.351,302.53
88.6302,349.93
88.9094,326.52
89.1886,344.81
89.4678,365.09
89.747,407.73
90.0261,523.94
90.3053,798.98
90.5845,1071.25
90.8637,1397.68
91.1429,863.86
91.4221,468.76
91.7013,347.41
91.9805,291.54
92.2596,321.68
92.5388,389.77
92.818,208.14
93.0972,331.29
93.3764,259.09
93.6556,264.35
93.9348,312.83
94.214,290.8
94.4931,217.88
94.7723,213.55
95.0515,293.42
95.3307,341.02
95.6099,451.14
95.8891,521.6
96.1683,650.7
96.4475,511.54
96.7266,500.8
97.0058,292.8
97.285,151.51
97.5642,254.02
97.8434,210.55
98.1226,322.63
98.4018,321.41
98.681,411.59
98.9601,603.83
99.2393,640.34
99.5185,606.42
99.7977,290.52
100.077,180.34
100.356,312.38
100.635,318.56
100.914,218.34
101.194,251.85
101.473,214.3
101.752,235.45
102.031,219.62
102.31,327.64
102.59,319.08
102.869,293.58
103.148,264.59
103.427,260.69
103.706,273.07
103.986,200.38
104.265,426.6
104.544,118.02
104.823,253.38
105.102,236.83
105.381,321.69
105.661,88.79
105.94,125.84
106.219,147.62
106.498,258.68
106.777,179.89
107.057,222.38
107.336,302.24
107.615,311.72
107.894,370.23
108.173,101.46
108.453,283.71
108.732,295.76
109.011,341.84
109.29,176.29
109.569,271.36
109.848,268.73
109.988,178.03